//v	c
//keep this header format!!
200   14.0616
205   14.0078
210   13.9497
215   13.9683
220   14.1828
225   13.8804
230   14.0218
235   13.7824
240   14.1371
245   14.1639
250   13.79
255   14.1224
260   13.8033
265   13.9004
270   13.9615
275   13.9062
280   13.9583
285   13.8771
290   13.9562
295   13.892
300   13.8965
305   13.8693
310   13.931
315   13.9637
320   13.8359
325   13.7667
330   13.9051
335   14.0072
340   13.8858
345   13.9344
350   14.0017
355   13.9853
360   13.9599
365   13.9485
370   13.8693
375   13.7851
380   14.1158
385   13.8818
390   13.7689
395   13.5329
400   13.8343
405   13.8074
410   13.8223
415   13.8008
420   13.8464
425   13.796
430   13.8063
435   13.7678
440   13.8107
445   13.7458
450   13.771
455   13.7682
460   13.7604
465   13.8596
470   13.7836
475   13.7173
480   13.7767
485   13.8065
490   13.6781
495   13.7001
500   13.6843
505   13.6726
510   13.6471
515   13.8083
520   13.7462
525   13.7124
530   13.8652
535   13.7629
540   13.5766
545   13.7981
550   13.6046
555   13.7213
560   13.9263
565   13.686
570   13.4127
575   13.9887
580   13.7528
585   13.3747
590   14.0044
595   13.7127
600   13.7185
605   13.7502
610   13.6818
615   13.7122
620   13.6123
625   13.6874
630   13.6655
635   13.6459
640   13.6449
645   13.6392
650   13.6262
655   13.7031
660   13.7329
665   13.7702
670   13.8022
675   13.8749
680   13.9166
685   13.9934
690   13.9917
695   14.0759
700   14.1034
705   14.1609
710   14.1972
715   14.2311
720   14.2518
725   14.3333
730   14.3772
735   14.4452
740   14.4485
745   14.5381
750   14.5653
755   14.5861
760   14.6279
765   14.7278
770   14.7424
775   14.7835
780   14.8078
785   14.8956
790   14.9017
795   14.9976
800   15.0167
805   15.0599
810   15.1122
815   15.1184
820   15.1928
825   15.2141
830   15.2437
835   15.3009
840   15.367
845   15.4018
850   15.4252
855   15.4597
860   15.5362
865   15.5643
870   15.6368
875   15.6742
880   15.6746
885   15.7507
890   15.7879
895   15.8276
900   15.8762
905   15.914
910   15.9569
915   15.9838
920   16.029
925   16.0626
930   16.1499
935   16.1607
940   16.245
945   16.2492
950   16.3378
955   16.3303
960   16.4161
965   16.4473
970   16.4538
975   16.5308
980   16.5398
985   16.619
990   16.6462
995   16.6888
1000  16.758
1005  16.7865
1010  16.8766
1015  16.8793
1020  16.9098
1025  16.9917
1030  17.0244
1035  17.0758
1040  17.1325
1045  17.1542
1050  17.1975
1055  17.2482
1060  17.3167
1065  17.3211
1070  17.3603
1075  17.4329
1080  17.4816
1085  17.5245
1090  17.5336
1095  17.6231
1100  17.6402
1105  17.6564
1110  17.7266
1115  17.7755
1120  17.813
1125  17.8569
1130  17.9205
1135  17.938
1140  17.9658
1145  18.0222
1150  18.0655
1155  18.1327
1160  18.1465
1165  18.1655
1170  18.2421
1175  18.2686
1180  18.3142
1185  18.3623
1190  18.3957
1195  18.4467
1200  18.4814
1205  18.5276
1210  18.5714
1215  18.6096
1220  18.6429
1225  18.7227
1230  18.7266
1235  18.7544
1240  18.8404
1245  18.8414
1250  18.9328
1255  18.9693
1260  18.9695
1265  19.0561
1270  19.1806
1275  19.2452
1280  19.2396
1285  19.3577
1290  19.4903
1295  19.5871
1300  19.64
1305  19.7627
1310  19.8601
1315  19.8634
1320  19.9586
1325  19.951
1330  19.993
1335  20.1012
1340  20.2191
1345  20.1714
1350  20.3088
1355  20.2807
1360  20.3682
1365  20.5466
1370  20.4724
1375  20.6217
1380  20.7773
1385  20.6729
1390  20.8251
1395  20.7488
1400  20.9163
1405  21.0704
1410  20.9586
1415  21.1204
1420  21.2481
1425  21.4183
1430  21.365
1435  21.7574
1440  21.6629
1445  21.5531
1450  21.9548
1455  22.1266
1460  22.0054
1465  22.1916
1470  22.3972
1475  22.2173
1480  22.3581
1485  22.2281
1490  22.4111
1495  22.5293
1500  22.7296
1505  22.9402
1510  22.6528
1515  23.2697
1520  23.0194
1525  23.1801
1530  22.9449
1535  23.1293
1540  23.3535
1545  23.456
1550  23.4971
1555  23.505
1560  23.6723
1565  23.7486
1570  23.8011
1575  23.8712
1580  23.9145
1585  24.088
1590  24.1033
1595  24.2052
1600  24.2679
1605  24.3322
1610  24.4839
1615  24.5137
1620  24.569
1625  24.6853
1630  24.804
1635  24.8672
1640  24.9776
1645  25.0679
1650  25.138
1655  25.2591
1660  25.3829
1665  25.5006
1670  25.5203
1675  25.5439
1680  25.6602
1685  25.8745
1690  25.8847
1695  26.0944
1700  26.1021
1705  26.2095
1710  26.3238
1715  26.3092
1720  26.4093
1725  26.513
1730  26.7386
1735  26.7109
1740  26.8072
1745  27.04
1750  27.1502
1755  27.229
1760  27.3209
1765  27.416
1770  27.6458
1775  27.5834
1780  27.6481
1785  27.7145
1790  27.9548
1795  28.0642
1800  28.108
1805  28.1566
1810  28.2017
1815  28.2755
1820  28.5102
1825  28.5869
1830  28.6103
1835  28.596
1840  28.6654
1845  28.8949
1850  28.9167
1855  29.1835
1860  29.1901
1865  29.2103
1870  29.1893
1875  29.4928
1880  29.723
1885  29.7236
1890  29.9813
1895  29.6455
1900  29.9045
1905  30.2039
1910  30.1015
1915  30.0356
1920  30.3575
1925  30.5951
1930  30.5171
1935  30.4873
1940  30.7414
1945  31.0066
1950  30.4581
1955  30.8644
1960  30.9669
1965  31.0216
1970  31.0814
1975  31.5357
1980  31.5568
1985  31.5103
1990  31.4167
1995  31.7628
2000  31.8422
2005  31.9751
2010  32.0882
2015  32.1466
2020  32.2175
2025  32.3142
2030  32.4635
2035  32.5832
2040  32.6879
2045  32.7197
2050  32.9341
2055  32.9529
2060  33.1309
2065  33.2221
2070  33.2606
2075  33.47
2080  33.4624
2085  33.6239
2090  33.6944
2095  33.8846
2100  33.9326
2105  33.9891
2110  34.126
2115  34.1942
2120  34.3143
2125  34.4322
2130  34.5795
2135  34.6013
2140  34.712
2145  34.6967
2150  34.9082
2155  35.0413
2160  35.1403
2165  35.2429
2170  35.2067
2175  35.4714
2180  35.5491
2185  35.7425
2190  35.6672
2195  35.9098
2200  35.9623
2205  36.0185
2210  36.245
2215  36.3203
2220  36.3282
2225  36.5413
2230  36.7432
2235  36.7687
2240  36.9412
2245  37.1824
2250  37.1485
2255  37.3577
2260  37.3399
2265  37.5246
2270  37.7047
2275  37.8684
2280  38.071
2285  38.26
2290  38.1896
2295  38.4083
2300  38.5249
2305  38.6523
2310  38.6168
2315  38.742
2320  38.9115
2325  39.2614
2330  39.1278
2335  39.3222
2340  39.3788
2345  39.8124
2350  39.6435
2355  39.707
2360  39.8228
2365  39.8948
2370  40.0085
2375  40.0903
2380  40.4762
2385  40.6052
2390  40.553
2395  40.6244
2400  40.7945
2405  40.9847
2410  41.1703
2415  40.9566
2420  41.0638
2425  41.508
2430  41.5799
2435  41.6479
2440  41.6973
2445  41.6702
2450  41.9997
2455  41.9184
2460  42.1891
2465  42.2923
2470  42.3683
2475  42.5345
2480  42.5981
2485  42.816
2490  42.8228
2495  42.9963
2500  43.1071
2505  43.2345
2510  43.3972
2515  43.4971
2520  43.522
2525  43.7345
2530  43.9086
2535  43.9687
2540  44.0719
2545  44.1696
2550  44.3683
2555  44.4751
2560  44.5956
2565  44.7074
2570  44.9635
2575  44.99
2580  45.1889
2585  45.2045
2590  45.3827
2595  45.5092
2600  45.6584
2605  45.8195
2610  45.9043
2615  46.1614
2620  46.1966
2625  46.3849
2630  46.4682
2635  46.6499
2640  46.7612
2645  46.8608
2650  46.9937
2655  47.2308
2660  47.3148
2665  47.5387
2670  47.6153
2675  47.7142
2680  47.9173
2685  48.0319
2690  48.0256
2695  48.4099
2700  48.4106
2705  48.5346
2710  48.6136
2715  48.7651
2720  48.9825
2725  48.9448
2730  49.2684
2735  49.2354
2740  49.5577
2745  49.7102
2750  49.786
2755  49.9522
2760  50.0547
2765  49.9341
2770  50.2056
2775  50.253
2780  50.5414
2785  50.4094
2790  50.9182
2795  50.9756
2800  50.9867
2805  50.9972
2810  51.2758
2815  51.4727
2820  51.5152
2825  51.7923
2830  51.7636
2835  51.9408
2840  52.2615
2845  52.3444
2850  52.4222
2855  52.7209
2860  52.7145
2865  52.9801
2870  52.9395
2875  53.1604
2880  53.3483
2885  53.5412
2890  53.6652
2895  53.7994
2900  53.9263
2905  54.003
2910  54.0968
2915  54.4471
2920  54.46
2925  54.7996
2930  54.7577
2935  54.9155
2940  55.0446
2945  55.2299
2950  55.3383
2955  55.4494
2960  55.6635
2965  55.7493
2970  55.8355
2975  56.0202
2980  56.1602
2985  56.2893
2990  56.3994
2995  56.4786
3000  56.6394 
