//v	c
//keep this header format!!
200      14.4819
205      14.3825
210      14.3718
215      14.2586
220      14.2776
225      14.1002
230      14.1749
235      14.2164
240      14.0526
245      14.017
250      13.9076
255     13.9698
260      14.0635
265      13.7607
270      14.1152
275      13.7035
280      14.0755
285     13.9511
290      13.8374
295      13.8143
300      13.7874
305      13.7698
310    13.7373
315      13.71
320      13.6885
325      13.6791
330      13.6959
335      13.6427
340      13.7132
345      13.7445
350      13.7445
355      13.5904
360      13.5424
365     13.644
370      13.7116
375      13.5839
380      13.627
385      13.6255
390      13.671
395      13.4109
400      13.6049
405      13.5856
410      13.7752
415     13.6937
420      13.579
425      13.749
430      13.6286
435      13.359
440      13.5647
445      13.5204
450      13.4818
455      13.4881
460      13.4068
465      13.4272
470      13.3942
475     13.3916
480      13.3295
485      13.2972
490      13.3993
495      13.3035
500      13.3117
505      13.2598
510      13.2386
515      13.2169
520      13.1123
525      13.1741
530      13.2043
535      13.1003
540      13.1226
545      13.1523
550     13.133
555      13.1168
560    12.9114
565      13.0752
570      13.0504
575      13.1663
580      13.123
585      12.8089
590      13.1688
595      13.0484
600      12.9555
605      13.1135
610      12.9743
615      12.8072
620      12.9264
625      13.0578
630      13.2149
635      12.9952
640      13.173
645      12.8793
650      12.9575
655      13.1015
660       13.2156
665       13.1495
670       13.1479
675       13.1774
680       13.2073
685       13.1745
690       13.1849
695       13.1928
700       13.2583
705       13.2892
710       13.3606
715       13.3862
720       13.4088
725       13.4882
730       13.5137
735       13.5459
740       13.6138
745       13.6397
750       13.6785
755       13.7007
760       13.782
765       13.8149
770       13.8324
775       13.8677
780       13.9475
785       13.9694
790       14.0176
795       14.0908
800       14.1149
805       14.1425
810       14.177
815       14.2721
820       14.3034
825       14.3475
830       14.3895
835       14.4336
840       14.4493
845       14.5336
850       14.5966
855       14.6315
860       14.6774
865       14.7153
870       14.8089
875       14.8425
880       14.867
885       14.9224
890       15.0128
895       15.0096
900       15.0806
905       15.1762
910     15.1514
915       15.2446
920       15.3262
925       15.3538
930       15.3998
935       15.4833
940        15.5149
945        15.5923
950        15.6729
955        15.6699
960        15.7449
965        15.8326
970        15.8687
975        15.9426
980        16.0179
985        16.0181
990       16.0962
995        16.1432
1000       16.2195
1005       16.2524
1010       16.3358
1015       16.369
1020     16.4512
1025       16.4375
1030       16.5325
1035       16.562
1040       16.5943
1045       16.6644
1050       16.6985
1055      16.8004
1060       16.8366
1065       16.8632
1070       16.9362
1075       16.9894
1080       16.9815
1085       17.0692
1090       17.1012
1095       17.1689
1100       17.2245
1105       17.2581
1110       17.3588
1115      17.396
1120      17.4568
1125       17.4822
1130       17.5958
1135       17.6324
1140       17.7108
1145       17.7299
1150       17.8068
1155       17.8353
1160       17.9581
1165       18.0072
1170       18.0459
1175       18.0791
1180       18.1758
1185       18.2092
1190       18.2528
1195       18.3108
1200       18.4017
1205       18.4962
1210       18.491
1215      18.5983
1220       18.6099
1225       18.6562
1230       18.704
1235       18.9004
1240       18.8
1245       18.8862
1250       19.2078
1255       18.9565
1260       19.3885
1265       19.1136
1270       19.2941
1275      19.3682
1280        19.4994
1285        19.5837
1290        19.6208
1295        19.77
1300       19.8532
1305        19.938
1310        20.0215
1315        20.1048
1320        20.2666
1325        20.3209
1330        20.473
1335       20.4833
1340        20.6716
1345        20.7687
1350        20.8815
1355       20.9629
1360        21.0402
1365        21.2046
1370        21.3367
1375        21.404
1380        21.6145
1385        21.5896
1390        21.6988
1395        21.8769
1400        21.9859
1405        22.0522
1410        22.1098
1415        22.3156
1420        22.3442
1425        22.4556
1430        22.6671
1435        22.7321
1440        22.9433
1445        22.9688
1450        23.0346
1455       23.237
1460        23.3314
1465        23.3443
1470        23.5932
1475        23.5899
1480       23.8261
1485        23.6633
1490        23.9217
1495        24.1416
1500        24.1631
1505        24.3735
1510        24.4485
1515        24.6732
1520        24.6651
1525        24.9068
1530        24.7012
1535        24.926
1540        25.1365
1545        25.3823
1550       25.3454
1555        25.662
1560       25.8822
1565        25.796
1570        26.0932
1575        26.0678
1580        25.9705
1585        26.1877
1590        26.1465
1595        26.4102
1600        26.6472
1605        26.9422
1610        26.7641
1615        27.0766
1620        27.3245
1625        27.1445
1630        27.4026
1635        27.2976
1640        27.6863
1645        27.9321
1650        28.1032
1655        28.2205
1660        28.3336
1665     28.3145
1670        28.4227
1675         28.5388
1680         28.6347
1685         28.8298
1690         28.8925
1695         29.0242
1700         29.1726
1705         29.2629
1710         29.4038
1715         29.4979
1720         29.638
1725         29.7268
1730        29.8281
1735         29.96
1740         30.0109
1745         30.1652
1750         30.2417
1755         30.3182
1760        30.4234
1765         30.519
1770         30.641
1775         30.6936
1780         30.8778
1785         31.0345
1790         31.0842
1795         31.2144
1800         31.3049
1805         31.3967
1810         31.5167
1815        31.6391
1820         31.8513
1825         31.9279
1830         32.0682
1835         32.1237
1840         32.3032
1845         32.4496
1850         32.6422
1855         32.7273
1860         32.9325
1865         33.0239
1870         33.2109
1875         33.437
1880         33.4553
1885         33.6613
1890         33.8375
1895         34.1003
1900         34.0784
1905         34.2301
1910        34.2827
1915         34.434
1920         34.6473
1925         34.7808
1930         34.9987
1935         35.1189
1940         35.0816
1945         35.2599
1950         35.6109
1955         35.5372
1960         35.6857
1965         35.7757
1970         36.2081
1975         36.2961
1980         36.465
1985         36.5595
1990         36.6756
1995         36.5186
2000         36.8769
2005         37.2526
2010         37.0951
2015         37.1186
2020        37.1404
2025         37.8493
2030         37.9647
2035         38.0117
2040        37.6248
2045         38.163
2050         38.4295
2055         38.3045
2060         38.5093
2065         38.6767
2070         38.8746
2075         39.0064
2080         39.0935
2085        39.1331
2090         39.2455
2095         39.6278
2100         39.6182
2105         39.717
2110         39.8632
2115         40.0244
2120         40.151
2125         40.2787
2130         40.4088
2135         40.5571
2140         40.6546
2145         40.8046
2150        40.9212
2155         41.0951
2160         41.1929
2165         41.3507
2170         41.5194
2175         41.6296
2180         41.8457
2185         41.9098
2190         42.0467
2195         42.2349
2200         42.3539
2205         42.5742
2210         42.7256
2215         42.8522
2220         42.9739
2225         43.0744
2230         43.2978
2235         43.3906
2240         43.7065
2245         43.7934
2250         43.9764
2255       44.192
2260         44.3352
2265         44.3951
2270         44.5443
2275         44.8229
2280         44.9511
2285         45.1057
2290         45.2118
2295         45.3533
2300        45.5729
2305         45.7752
2310         45.8503
2315         45.9298
2320         46.117
2325         46.1577
2330         46.3633
2335         46.5449
2340         46.6821
2345         46.7096
2350         47.0604
2355         47.2147
2360        47.119
2365         47.2891
2370         47.4464
2375         47.5754
2380         47.881
2385         47.8195
2390         47.8977
2395         48.1875
2400         48.2964
2405       48.4535
2410         48.7286
2415         48.7841
2420         49.1449
2425         49.1326
2430         49.1898
2435         49.5843
2440         49.6237
2445         49.8531
2450         49.9194
2455         50.2113
2460         50.4412
2465         50.5147
2470         50.7092
2475         50.8733
2480         50.9522
2485         51.302
2490         51.391
2495         51.3983
2500        51.7088
2505        51.9383
2510         51.9455
2515         52.1416
2520         52.274
2525         52.4314
2530         52.543
2535         52.7045
2540         53.1442
2545         53.1663
2550         53.2415
2555         53.5392
2560         53.5694
2565         53.7447
2570         53.8844
2575         54.0065
2580         54.1746
2585         54.3189
2590         54.466
2595         54.7048
2600         54.8323
2605        55.0508
2610         55.1564
2615         55.3485
2620         55.5497
2625         55.6308
2630         55.9167
2635         56.0028
2640         56.1933
2645         56.3394
2650         56.5402
2655         56.7467
2660         56.8759
2665         57.0435
2670         57.2157
2675        57.4352
2680        57.5291
2685         57.7774
2690        57.9812
2695         58.0325
2700         58.2457
2705         58.3629
2710         58.5928
2715         58.7893
2720       58.763
2725         59.0195
2730         59.0884
2735         59.3158
2740         59.5192
2745         59.6851
2750         59.6952
2755         59.8941
2760        59.9911
2765         60.1857
2770         60.2954
2775        60.5395
2780         60.6585
2785         60.8798
2790         60.9116
2795        61.1883
2800        61.223
2805         61.2608
2810         61.448
2815         61.5992
2820         61.8161
2825         61.9805
2830         62.268
2835         62.2423
2840         62.5469
2845         62.663
2850         62.7219
2855         63.0933
2860         63.1849
2865         63.4262
2870         63.5085
2875         63.7664
2880         63.8567
2885         63.8922
2890         64.1528
2895         64.3277
2900         64.4175
2905         64.4749
2910         64.7541
2915         64.949
2920         64.9831
2925         65.1684
2930         65.3415
2935         65.4858
2940         65.6426
2945         65.7532
2950         66.0558
2955         66.1395
2960         66.1728
2965        66.4058
2970         66.608
2975         66.6533
2980        66.8201
2985         67.026
2990         67.1665
2995         67.3333
3000         67.4134
